Ok(Course { subject_area_course_code: "ACCT2101", subject_area_course_name: "ACCT2101", uoc: 12, faculty: Some("UNSW Business School"), school: Some("School of Acctng, Audit & Tax"), campus: Some("Sydney"), career: Some("Undergraduate"), terms: ["U1", "T1"], classes: [Class { class_id: "1025", section: "CR01", term: "U1 - Summer Teaching Period", activity: "Course Enrolment", status: "Open", course_enrolment: "0/10", offering_period: "01/01/2024 - 11/02/2024", meeting_dates: "Standard dates", census_date: "14/01/2024", consent: "School consent required", mode: "In Person", times: None, class_notes: None }, Class { class_id: "1895", section: "OTH1", term: "U1 - Summer Teaching Period", activity: "Other", status: "Open", course_enrolment: "0/10", offering_period: "01/01/2024 - 11/02/2024", meeting_dates: "Standard dates", census_date: "14/01/2024", consent: "School consent required", mode: "In Person", times: None, class_notes: None }, Class { class_id: "1471", section: "CR01", term: "T1 - Teaching Period One", activity: "Course Enrolment", status: "Open", course_enrolment: "0/4", offering_period: "12/02/2024 - 12/05/2024", meeting_dates: "Standard dates", census_date: "10/03/2024", consent: "Consent not required", mode: "In Person", times: None, class_notes: None }, Class { class_id: "11185", section: "OTH1", term: "T1 - Teaching Period One", activity: "Other", status: "Open", course_enrolment: "6/10", offering_period: "12/02/2024 - 12/05/2024", meeting_dates: "Standard dates", census_date: "10/03/2024", consent: "Consent not required", mode: "In Person", times: None, class_notes: None }] })
Ok(Course { subject_area_course_code: "ACCT2511", subject_area_course_name: "ACCT2511", uoc: 6, faculty: Some("UNSW Business School"), school: Some("School of Acctng, Audit & Tax"), campus: Some("Sydney"), career: Some("Undergraduate"), terms: ["T1", "T3"], classes: [Class { class_id: "1472", section: "CR01", term: "T1 - Teaching Period One", activity: "Course Enrolment", status: "Open", course_enrolment: "0/32", offering_period: "12/02/2024 - 12/05/2024", meeting_dates: "Standard dates", census_date: "10/03/2024", consent: "Consent not required", mode: "In Person", times: None, class_notes: None }, Class { class_id: "10301", section: "A", term: "T1 - Teaching Period One", activity: "Lecture", status: "Open", course_enrolment: "238/264", offering_period: "12/02/2024 - 12/05/2024", meeting_dates: "Standard dates", census_date: "10/03/2024", consent: "Consent not required", mode: "In Person", times: None, class_notes: None }, Class { class_id: "10302", section: "H12A", term: "T1 - Teaching Period One", activity: "Tutorial", status: "Full", course_enrolment: "24/24", offering_period: "12/02/2024 - 12/05/2024", meeting_dates: "Standard dates", census_date: "10/03/2024", consent: "Consent not required", mode: "In Person", times: None, class_notes: None }, Class { class_id: "10303", section: "H13A", term: "T1 - Teaching Period One", activity: "Tutorial", status: "Full", course_enrolment: "24/24", offering_period: "12/02/2024 - 12/05/2024", meeting_dates: "Standard dates", census_date: "10/03/2024", consent: "Consent not required", mode: "In Person", times: None, class_notes: None }, Class { class_id: "10304", section: "H15A", term: "T1 - Teaching Period One", activity: "Tutorial", status: "Open", course_enrolment: "23/24", offering_period: "12/02/2024 - 12/05/2024", meeting_dates: "Standard dates", census_date: "10/03/2024", consent: "Consent not required", mode: "In Person", times: None, class_notes: None }, Class { class_id: "11537", section: "H16A", term: "T1 - Teaching Period One", activity: "Tutorial", status: "Open", course_enrolment: "23/24", offering_period: "12/02/2024 - 12/05/2024", meeting_dates: "Standard dates", census_date: "10/03/2024", consent: "Consent not required", mode: "In Person", times: None, class_notes: None }, Class { class_id: "11956", section: "H16B", term: "T1 - Teaching Period One", activity: "Tutorial", status: "Full", course_enrolment: "24/24", offering_period: "12/02/2024 - 12/05/2024", meeting_dates: "Standard dates", census_date: "10/03/2024", consent: "Consent not required", mode: "In Person", times: None, class_notes: None }, Class { class_id: "10305", section: "H18A", term: "T1 - Teaching Period One", activity: "Tutorial", status: "Open", course_enrolment: "21/24", offering_period: "12/02/2024 - 12/05/2024", meeting_dates: "Standard dates", census_date: "10/03/2024", consent: "Consent not required", mode: "In Person", times: None, class_notes: None }, Class { class_id: "10306", section: "T09A", term: "T1 - Teaching Period One", activity: "Tutorial", status: "Open", course_enrolment: "17/24", offering_period: "12/02/2024 - 12/05/2024", meeting_dates: "Standard dates", census_date: "10/03/2024", consent: "Consent not required", mode: "In Person", times: None, class_notes: None }, Class { class_id: "10307", section: "T10A", term: "T1 - Teaching Period One", activity: "Tutorial", status: "Open", course_enrolment: "19/24", offering_period: "12/02/2024 - 12/05/2024", meeting_dates: "Standard dates", census_date: "10/03/2024", consent: "Consent not required", mode: "In Person", times: None, class_notes: None }, Class { class_id: "10308", section: "T12A", term: "T1 - Teaching Period One", activity: "Tutorial", status: "Open", course_enrolment: "23/24", offering_period: "12/02/2024 - 12/05/2024", meeting_dates: "Standard dates", census_date: "10/03/2024", consent: "Consent not required", mode: "In Person", times: None, class_notes: None }, Class { class_id: "10309", section: "T13A", term: "T1 - Teaching Period One", activity: "Tutorial", status: "Open", course_enrolment: "23/24", offering_period: "12/02/2024 - 12/05/2024", meeting_dates: "Standard dates", census_date: "10/03/2024", consent: "Consent not required", mode: "In Person", times: None, class_notes: None }, Class { class_id: "12467", section: "W18A", term: "T1 - Teaching Period One", activity: "Tutorial", status: "Open", course_enrolment: "17/24", offering_period: "12/02/2024 - 12/05/2024", meeting_dates: "Standard dates", census_date: "10/03/2024", consent: "Consent not required", mode: "In Person", times: None, class_notes: None }, Class { class_id: "1993", section: "CR01", term: "T3 - Teaching Period Three", activity: "Course Enrolment", status: "Full", course_enrolment: "24/24", offering_period: "09/09/2024 - 08/12/2024", meeting_dates: "Standard dates", census_date: "06/10/2024", consent: "Consent not required", mode: "In Person", times: None, class_notes: None }, Class { class_id: "10729", section: "A", term: "T3 - Teaching Period Three", activity: "Lecture", status: "Open", course_enrolment: "321/345", offering_period: "09/09/2024 - 08/12/2024", meeting_dates: "Standard dates", census_date: "06/10/2024", consent: "Consent not required", mode: "In Person", times: None, class_notes: None }, Class { class_id: "12789", section: "F09A", term: "T3 - Teaching Period Three", activity: "Tutorial", status: "Open", course_enrolment: "9/23", offering_period: "09/09/2024 - 08/12/2024", meeting_dates: "Standard dates", census_date: "06/10/2024", consent: "Consent not required", mode: "In Person", times: None, class_notes: None }, Class { class_id: "10730", section: "H09A", term: "T3 - Teaching Period Three", activity: "Tutorial", status: "Full", course_enrolment: "23/23", offering_period: "09/09/2024 - 08/12/2024", meeting_dates: "Standard dates", census_date: "06/10/2024", consent: "Consent not required", mode: "In Person", times: None, class_notes: None }, Class { class_id: "10731", section: "H10A", term: "T3 - Teaching Period Three", activity: "Tutorial", status: "Full", course_enrolment: "23/23", offering_period: "09/09/2024 - 08/12/2024", meeting_dates: "Standard dates", census_date: "06/10/2024", consent: "Consent not required", mode: "In Person", times: None, class_notes: None }, Class { class_id: "10732", section: "H12A", term: "T3 - Teaching Period Three", activity: "Tutorial", status: "Full", course_enrolment: "23/23", offering_period: "09/09/2024 - 08/12/2024", meeting_dates: "Standard dates", census_date: "06/10/2024", consent: "Consent not required", mode: "In Person", times: None, class_notes: None }, Class { class_id: "12599", section: "H16A", term: "T3 - Teaching Period Three", activity: "Tutorial", status: "Full", course_enrolment: "23/23", offering_period: "09/09/2024 - 08/12/2024", meeting_dates: "Standard dates", census_date: "06/10/2024", consent: "Consent not required", mode: "In Person", times: None, class_notes: None }, Class { class_id: "12600", section: "H18A", term: "T3 - Teaching Period Three", activity: "Tutorial", status: "Open", course_enrolment: "19/23", offering_period: "09/09/2024 - 08/12/2024", meeting_dates: "Standard dates", census_date: "06/10/2024", consent: "Consent not required", mode: "In Person", times: None, class_notes: None }, Class { class_id: "10733", section: "T16A", term: "T3 - Teaching Period Three", activity: "Tutorial", status: "Full", course_enrolment: "23/23", offering_period: "09/09/2024 - 08/12/2024", meeting_dates: "Standard dates", census_date: "06/10/2024", consent: "Consent not required", mode: "In Person", times: None, class_notes: None }, Class { class_id: "10734", section: "T18A", term: "T3 - Teaching Period Three", activity: "Tutorial", status: "Full", course_enrolment: "23/23", offering_period: "09/09/2024 - 08/12/2024", meeting_dates: "Standard dates", census_date: "06/10/2024", consent: "Consent not required", mode: "In Person", times: None, class_notes: None }, Class { class_id: "10735", section: "W09A", term: "T3 - Teaching Period Three", activity: "Tutorial", status: "Open", course_enrolment: "20/23", offering_period: "09/09/2024 - 08/12/2024", meeting_dates: "Standard dates", census_date: "06/10/2024", consent: "Consent not required", mode: "In Person", times: None, class_notes: None }, Class { class_id: "10736", section: "W10A", term: "T3 - Teaching Period Three", activity: "Tutorial", status: "Full", course_enrolment: "23/23", offering_period: "09/09/2024 - 08/12/2024", meeting_dates: "Standard dates", census_date: "06/10/2024", consent: "Consent not required", mode: "In Person", times: None, class_notes: None }, Class { class_id: "10737", section: "W12A", term: "T3 - Teaching Period Three", activity: "Tutorial", status: "Full", course_enrolment: "23/23", offering_period: "09/09/2024 - 08/12/2024", meeting_dates: "Standard dates", census_date: "06/10/2024", consent: "Consent not required", mode: "In Person", times: None, class_notes: None }, Class { class_id: "10738", section: "W13A", term: "T3 - Teaching Period Three", activity: "Tutorial", status: "Full", course_enrolment: "23/23", offering_period: "09/09/2024 - 08/12/2024", meeting_dates: "Standard dates", census_date: "06/10/2024", consent: "Consent not required", mode: "In Person", times: None, class_notes: None }, Class { class_id: "10739", section: "W15A", term: "T3 - Teaching Period Three", activity: "Tutorial", status: "Full", course_enrolment: "23/23", offering_period: "09/09/2024 - 08/12/2024", meeting_dates: "Standard dates", census_date: "06/10/2024", consent: "Consent not required", mode: "In Person", times: None, class_notes: None }, Class { class_id: "10740", section: "W16A", term: "T3 - Teaching Period Three", activity: "Tutorial", status: "Full", course_enrolment: "23/23", offering_period: "09/09/2024 - 08/12/2024", meeting_dates: "Standard dates", census_date: "06/10/2024", consent: "Consent not required", mode: "In Person", times: None, class_notes: None }, Class { class_id: "10741", section: "W18A", term: "T3 - Teaching Period Three", activity: "Tutorial", status: "Open", course_enrolment: "20/23", offering_period: "09/09/2024 - 08/12/2024", meeting_dates: "Standard dates", census_date: "06/10/2024", consent: "Consent not required", mode: "In Person", times: None, class_notes: None }] })
Ok(Course { subject_area_course_code: "ACCT2522", subject_area_course_name: "ACCT2522", uoc: 6, faculty: Some("UNSW Business School"), school: Some("School of Acctng, Audit & Tax"), campus: Some("Sydney"), career: Some("Undergraduate"), terms: ["T1", "T3"], classes: [Class { class_id: "1473", section: "CR01", term: "T1 - Teaching Period One", activity: "Course Enrolment", status: "Open", course_enrolment: "0/22", offering_period: "12/02/2024 - 12/05/2024", meeting_dates: "Standard dates", census_date: "10/03/2024", consent: "Consent not required", mode: "In Person", times: None, class_notes: None }, Class { class_id: "3514", section: "A", term: "T1 - Teaching Period One", activity: "Lecture", status: "Open", course_enrolment: "258/277", offering_period: "12/02/2024 - 12/05/2024", meeting_dates: "Standard dates", census_date: "10/03/2024", consent: "Consent not required", mode: "In Person", times: None, class_notes: None }, Class { class_id: "3521", section: "OH01", term: "T1 - Teaching Period One", activity: "Other", status: "Open", course_enrolment: "258/277", offering_period: "12/02/2024 - 12/05/2024", meeting_dates: "Standard dates", census_date: "10/03/2024", consent: "Consent not required", mode: "Online", times: None, class_notes: None }, Class { class_id: "3515", section: "H09A", term: "T1 - Teaching Period One", activity: "Tutorial", status: "Open", course_enrolment: "14/23", offering_period: "12/02/2024 - 12/05/2024", meeting_dates: "Standard dates", census_date: "10/03/2024", consent: "Consent not required", mode: "In Person", times: None, class_notes: None }, Class { class_id: "3516", section: "H10A", term: "T1 - Teaching Period One", activity: "Tutorial", status: "Open", course_enrolment: "22/23", offering_period: "12/02/2024 - 12/05/2024", meeting_dates: "Standard dates", census_date: "10/03/2024", consent: "Consent not required", mode: "In Person", times: None, class_notes: None }, Class { class_id: "3517", section: "H12A", term: "T1 - Teaching Period One", activity: "Tutorial", status: "Open", course_enrolment: "19/23", offering_period: "12/02/2024 - 12/05/2024", meeting_dates: "Standard dates", census_date: "10/03/2024", consent: "Consent not required", mode: "In Person", times: None, class_notes: None }, Class { class_id: "3518", section: "H13A", term: "T1 - Teaching Period One", activity: "Tutorial", status: "Full", course_enrolment: "23/23", offering_period: "12/02/2024 - 12/05/2024", meeting_dates: "Standard dates", census_date: "10/03/2024", consent: "Consent not required", mode: "In Person", times: None, class_notes: None }, Class { class_id: "3519", section: "H15A", term: "T1 - Teaching Period One", activity: "Tutorial", status: "Open", course_enrolment: "21/23", offering_period: "12/02/2024 - 12/05/2024", meeting_dates: "Standard dates", census_date: "10/03/2024", consent: "Consent not required", mode: "In Person", times: None, class_notes: None }, Class { class_id: "3520", section: "H18A", term: "T1 - Teaching Period One", activity: "Tutorial", status: "Full", course_enrolment: "23/23", offering_period: "12/02/2024 - 12/05/2024", meeting_dates: "Standard dates", census_date: "10/03/2024", consent: "Consent not required", mode: "In Person", times: None, class_notes: None }, Class { class_id: "3522", section: "T12A", term: "T1 - Teaching Period One", activity: "Tutorial", status: "Full", course_enrolment: "23/23", offering_period: "12/02/2024 - 12/05/2024", meeting_dates: "Standard dates", census_date: "10/03/2024", consent: "Consent not required", mode: "In Person", times: None, class_notes: None }, Class { class_id: "3523", section: "T13A", term: "T1 - Teaching Period One", activity: "Tutorial", status: "Full", course_enrolment: "23/23", offering_period: "12/02/2024 - 12/05/2024", meeting_dates: "Standard dates", census_date: "10/03/2024", consent: "Consent not required", mode: "In Person", times: None, class_notes: None }, Class { class_id: "3526", section: "T18A", term: "T1 - Teaching Period One", activity: "Tutorial", status: "Full", course_enrolment: "24/24", offering_period: "12/02/2024 - 12/05/2024", meeting_dates: "Standard dates", census_date: "10/03/2024", consent: "Consent not required", mode: "In Person", times: None, class_notes: None }, Class { class_id: "3527", section: "W09A", term: "T1 - Teaching Period One", activity: "Tutorial", status: "Open", course_enrolment: "21/23", offering_period: "12/02/2024 - 12/05/2024", meeting_dates: "Standard dates", census_date: "10/03/2024", consent: "Consent not required", mode: "In Person", times: None, class_notes: None }, Class { class_id: "3528", section: "W10A", term: "T1 - Teaching Period One", activity: "Tutorial", status: "Open", course_enrolment: "22/23", offering_period: "12/02/2024 - 12/05/2024", meeting_dates: "Standard dates", census_date: "10/03/2024", consent: "Consent not required", mode: "In Person", times: None, class_notes: None }, Class { class_id: "3529", section: "W15A", term: "T1 - Teaching Period One", activity: "Tutorial", status: "Full", course_enrolment: "23/23", offering_period: "12/02/2024 - 12/05/2024", meeting_dates: "Standard dates", census_date: "10/03/2024", consent: "Consent not required", mode: "In Person", times: None, class_notes: None }, Class { class_id: "1994", section: "CR01", term: "T3 - Teaching Period Three", activity: "Course Enrolment", status: "Open", course_enrolment: "18/29", offering_period: "09/09/2024 - 08/12/2024", meeting_dates: "Standard dates", census_date: "06/10/2024", consent: "Consent not required", mode: "In Person", times: None, class_notes: None }, Class { class_id: "3762", section: "LEC1", term: "T3 - Teaching Period Three", activity: "Lecture", status: "Open", course_enrolment: "270/299", offering_period: "09/09/2024 - 08/12/2024", meeting_dates: "Standard dates", census_date: "06/10/2024", consent: "Consent not required", mode: "In Person", times: None, class_notes: None }, Class { class_id: "12660", section: "H10A", term: "T3 - Teaching Period Three", activity: "Tutorial", status: "Full", course_enrolment: "23/23", offering_period: "09/09/2024 - 08/12/2024", meeting_dates: "Standard dates", census_date: "06/10/2024", consent: "Consent not required", mode: "In Person", times: None, class_notes: None }, Class { class_id: "3757", section: "H12A", term: "T3 - Teaching Period Three", activity: "Tutorial", status: "Full", course_enrolment: "23/23", offering_period: "09/09/2024 - 08/12/2024", meeting_dates: "Standard dates", census_date: "06/10/2024", consent: "Consent not required", mode: "In Person", times: None, class_notes: None }, Class { class_id: "3758", section: "H13A", term: "T3 - Teaching Period Three", activity: "Tutorial", status: "Full", course_enrolment: "23/23", offering_period: "09/09/2024 - 08/12/2024", meeting_dates: "Standard dates", census_date: "06/10/2024", consent: "Consent not required", mode: "In Person", times: None, class_notes: None }, Class { class_id: "3759", section: "H15A", term: "T3 - Teaching Period Three", activity: "Tutorial", status: "Full", course_enrolment: "23/23", offering_period: "09/09/2024 - 08/12/2024", meeting_dates: "Standard dates", census_date: "06/10/2024", consent: "Consent not required", mode: "In Person", times: None, class_notes: None }, Class { class_id: "3760", section: "H16A", term: "T3 - Teaching Period Three", activity: "Tutorial", status: "Full", course_enrolment: "23/23", offering_period: "09/09/2024 - 08/12/2024", meeting_dates: "Standard dates", census_date: "06/10/2024", consent: "Consent not required", mode: "In Person", times: None, class_notes: None }, Class { class_id: "3761", section: "H18A", term: "T3 - Teaching Period Three", activity: "Tutorial", status: "Open", course_enrolment: "12/23", offering_period: "09/09/2024 - 08/12/2024", meeting_dates: "Standard dates", census_date: "06/10/2024", consent: "Consent not required", mode: "In Person", times: None, class_notes: None }, Class { class_id: "3763", section: "T10A", term: "T3 - Teaching Period Three", activity: "Tutorial", status: "Full", course_enrolment: "23/23", offering_period: "09/09/2024 - 08/12/2024", meeting_dates: "Standard dates", census_date: "06/10/2024", consent: "Consent not required", mode: "In Person", times: None, class_notes: None }, Class { class_id: "3764", section: "T12A", term: "T3 - Teaching Period Three", activity: "Tutorial", status: "Full", course_enrolment: "23/23", offering_period: "09/09/2024 - 08/12/2024", meeting_dates: "Standard dates", census_date: "06/10/2024", consent: "Consent not required", mode: "In Person", times: None, class_notes: None }, Class { class_id: "12783", section: "W13A", term: "T3 - Teaching Period Three", activity: "Tutorial", status: "Open", course_enrolment: "16/23", offering_period: "09/09/2024 - 08/12/2024", meeting_dates: "Standard dates", census_date: "06/10/2024", consent: "Consent not required", mode: "In Person", times: None, class_notes: None }, Class { class_id: "3765", section: "W15A", term: "T3 - Teaching Period Three", activity: "Tutorial", status: "Full", course_enrolment: "23/23", offering_period: "09/09/2024 - 08/12/2024", meeting_dates: "Standard dates", census_date: "06/10/2024", consent: "Consent not required", mode: "In Person", times: None, class_notes: None }, Class { class_id: "3766", section: "W16A", term: "T3 - Teaching Period Three", activity: "Tutorial", status: "Full", course_enrolment: "23/23", offering_period: "09/09/2024 - 08/12/2024", meeting_dates: "Standard dates", census_date: "06/10/2024", consent: "Consent not required", mode: "In Person", times: None, class_notes: None }, Class { class_id: "3767", section: "W18A", term: "T3 - Teaching Period Three", activity: "Tutorial", status: "Open", course_enrolment: "22/23", offering_period: "09/09/2024 - 08/12/2024", meeting_dates: "Standard dates", census_date: "06/10/2024", consent: "Consent not required", mode: "In Person", times: None, class_notes: None }, Class { class_id: "3768", section: "W18B", term: "T3 - Teaching Period Three", activity: "Tutorial", status: "Open", course_enrolment: "13/23", offering_period: "09/09/2024 - 08/12/2024", meeting_dates: "Standard dates", census_date: "06/10/2024", consent: "Consent not required", mode: "In Person", times: None, class_notes: None }] })
Ok(Course { subject_area_course_code: "ACCT2542", subject_area_course_name: "ACCT2542", uoc: 6, faculty: Some("UNSW Business School"), school: Some("School of Acctng, Audit & Tax"), campus: Some("Sydney"), career: Some("Undergraduate"), terms: ["U1", "T2"], classes: [Class { class_id: "2053", section: "CR01", term: "U1 - Summer Teaching Period", activity: "Course Enrolment", status: "Open", course_enrolment: "0/22", offering_period: "01/01/2024 - 11/02/2024", meeting_dates: "Standard dates", census_date: "14/01/2024", consent: "Consent not required", mode: "In Person", times: None, class_notes: None }, Class { class_id: "2054", section: "A", term: "U1 - Summer Teaching Period", activity: "Seminar", status: "Open", course_enrolment: "18/40", offering_period: "01/01/2024 - 11/02/2024", meeting_dates: "Standard dates", census_date: "14/01/2024", consent: "Consent not required", mode: "In Person", times: Some([Time { day: "Tue", time: "11:00 - 14:00", location: "", weeks: "", instructor: None }]), class_notes: None }, Class { class_id: "1969", section: "CR01", term: "T2 - Teaching Period Two", activity: "Course Enrolment", status: "Open", course_enrolment: "0/16", offering_period: "27/05/2024 - 25/08/2024", meeting_dates: "Standard dates", census_date: "23/06/2024", consent: "Consent not required", mode: "In Person", times: None, class_notes: None }, Class { class_id: "3645", section: "A", term: "T2 - Teaching Period Two", activity: "Lecture", status: "Open", course_enrolment: "329/345", offering_period: "27/05/2024 - 25/08/2024", meeting_dates: "Standard dates", census_date: "23/06/2024", consent: "Consent not required", mode: "In Person", times: None, class_notes: None }, Class { class_id: "3646", section: "H18A", term: "T2 - Teaching Period Two", activity: "Tutorial", status: "Full", course_enrolment: "23/23", offering_period: "27/05/2024 - 25/08/2024", meeting_dates: "Standard dates", census_date: "23/06/2024", consent: "Consent not required", mode: "In Person", times: None, class_notes: None }, Class { class_id: "12592", section: "H18B", term: "T2 - Teaching Period Two", activity: "Tutorial", status: "Full", course_enrolment: "23/23", offering_period: "27/05/2024 - 25/08/2024", meeting_dates: "Standard dates", census_date: "23/06/2024", consent: "Consent not required", mode: "In Person", times: None, class_notes: None }, Class { class_id: "3647", section: "M09A", term: "T2 - Teaching Period Two", activity: "Tutorial", status: "Open", course_enrolment: "21/23", offering_period: "27/05/2024 - 25/08/2024", meeting_dates: "Standard dates", census_date: "23/06/2024", consent: "Consent not required", mode: "In Person", times: None, class_notes: None }, Class { class_id: "3648", section: "M10A", term: "T2 - Teaching Period Two", activity: "Tutorial", status: "Open", course_enrolment: "18/23", offering_period: "27/05/2024 - 25/08/2024", meeting_dates: "Standard dates", census_date: "23/06/2024", consent: "Consent not required", mode: "In Person", times: None, class_notes: None }, Class { class_id: "3649", section: "M12A", term: "T2 - Teaching Period Two", activity: "Tutorial", status: "Open", course_enrolment: "21/23", offering_period: "27/05/2024 - 25/08/2024", meeting_dates: "Standard dates", census_date: "23/06/2024", consent: "Consent not required", mode: "In Person", times: None, class_notes: None }, Class { class_id: "12329", section: "M12B", term: "T2 - Teaching Period Two", activity: "Tutorial", status: "Open", course_enrolment: "22/23", offering_period: "27/05/2024 - 25/08/2024", meeting_dates: "Standard dates", census_date: "23/06/2024", consent: "Consent not required", mode: "In Person", times: None, class_notes: None }, Class { class_id: "3650", section: "M13A", term: "T2 - Teaching Period Two", activity: "Tutorial", status: "Full", course_enrolment: "23/23", offering_period: "27/05/2024 - 25/08/2024", meeting_dates: "Standard dates", census_date: "23/06/2024", consent: "Consent not required", mode: "In Person", times: None, class_notes: None }, Class { class_id: "3651", section: "T09A", term: "T2 - Teaching Period Two", activity: "Tutorial", status: "Open", course_enrolment: "21/23", offering_period: "27/05/2024 - 25/08/2024", meeting_dates: "Standard dates", census_date: "23/06/2024", consent: "Consent not required", mode: "In Person", times: None, class_notes: None }, Class { class_id: "3652", section: "T10A", term: "T2 - Teaching Period Two", activity: "Tutorial", status: "Open", course_enrolment: "22/23", offering_period: "27/05/2024 - 25/08/2024", meeting_dates: "Standard dates", census_date: "23/06/2024", consent: "Consent not required", mode: "In Person", times: None, class_notes: None }, Class { class_id: "12589", section: "T11A", term: "T2 - Teaching Period Two", activity: "Tutorial", status: "Full", course_enrolment: "23/23", offering_period: "27/05/2024 - 25/08/2024", meeting_dates: "Standard dates", census_date: "23/06/2024", consent: "Consent not required", mode: "In Person", times: None, class_notes: None }, Class { class_id: "3653", section: "T12A", term: "T2 - Teaching Period Two", activity: "Tutorial", status: "Open", course_enrolment: "22/23", offering_period: "27/05/2024 - 25/08/2024", meeting_dates: "Standard dates", census_date: "23/06/2024", consent: "Consent not required", mode: "In Person", times: None, class_notes: None }, Class { class_id: "3654", section: "T13A", term: "T2 - Teaching Period Two", activity: "Tutorial", status: "Open", course_enrolment: "21/23", offering_period: "27/05/2024 - 25/08/2024", meeting_dates: "Standard dates", census_date: "23/06/2024", consent: "Consent not required", mode: "In Person", times: None, class_notes: None }, Class { class_id: "3655", section: "W15A", term: "T2 - Teaching Period Two", activity: "Tutorial", status: "Full", course_enrolment: "25/23", offering_period: "27/05/2024 - 25/08/2024", meeting_dates: "Standard dates", census_date: "23/06/2024", consent: "Consent not required", mode: "In Person", times: None, class_notes: None }, Class { class_id: "12571", section: "W15B", term: "T2 - Teaching Period Two", activity: "Tutorial", status: "Full", course_enrolment: "23/23", offering_period: "27/05/2024 - 25/08/2024", meeting_dates: "Standard dates", census_date: "23/06/2024", consent: "Consent not required", mode: "In Person", times: None, class_notes: None }, Class { class_id: "3656", section: "W16A", term: "T2 - Teaching Period Two", activity: "Tutorial", status: "Open", course_enrolment: "21/23", offering_period: "27/05/2024 - 25/08/2024", meeting_dates: "Standard dates", census_date: "23/06/2024", consent: "Consent not required", mode: "In Person", times: None, class_notes: None }] })
Ok(Course { subject_area_course_code: "ACCT2562", subject_area_course_name: "ACCT2562", uoc: 6, faculty: Some("UNSW Business School"), school: Some("School of Acctng, Audit & Tax"), campus: Some("Sydney"), career: Some("Undergraduate"), terms: ["T3"], classes: [Class { class_id: "2200", section: "CR01", term: "T3 - Teaching Period Three", activity: "Course Enrolment", status: "Open", course_enrolment: "0/14", offering_period: "09/09/2024 - 08/12/2024", meeting_dates: "Standard dates", census_date: "06/10/2024", consent: "Consent not required", mode: "In Person", times: None, class_notes: None }, Class { class_id: "11655", section: "M13A", term: "T3 - Teaching Period Three", activity: "Seminar", status: "Open", course_enrolment: "31/45", offering_period: "09/09/2024 - 08/12/2024", meeting_dates: "Standard dates", census_date: "06/10/2024", consent: "Consent not required", mode: "In Person", times: None, class_notes: None }] })
Ok(Course { subject_area_course_code: "ACCT3202", subject_area_course_name: "ACCT3202", uoc: 6, faculty: Some("UNSW Business School"), school: Some("School of Acctng, Audit & Tax"), campus: Some("Sydney"), career: Some("Undergraduate"), terms: ["T1", "T2"], classes: [Class { class_id: "1474", section: "CR01", term: "T1 - Teaching Period One", activity: "Course Enrolment", status: "Open", course_enrolment: "0/2", offering_period: "12/02/2024 - 12/05/2024", meeting_dates: "Standard dates", census_date: "10/03/2024", consent: "Consent not required", mode: "In Person", times: None, class_notes: None }, Class { class_id: "11269", section: "OTH1", term: "T1 - Teaching Period One", activity: "Other", status: "Open", course_enrolment: "8/10", offering_period: "12/02/2024 - 12/05/2024", meeting_dates: "Standard dates", census_date: "10/03/2024", consent: "Consent not required", mode: "In Person", times: None, class_notes: None }, Class { class_id: "1968", section: "CR01", term: "T2 - Teaching Period Two", activity: "Course Enrolment", status: "Open", course_enrolment: "0/2", offering_period: "27/05/2024 - 25/08/2024", meeting_dates: "Standard dates", census_date: "23/06/2024", consent: "Consent not required", mode: "In Person", times: None, class_notes: None }, Class { class_id: "11649", section: "OTH1", term: "T2 - Teaching Period Two", activity: "Other", status: "Open", course_enrolment: "8/10", offering_period: "27/05/2024 - 25/08/2024", meeting_dates: "Standard dates", census_date: "23/06/2024", consent: "Consent not required", mode: "In Person", times: None, class_notes: None }] })
Ok(Course { subject_area_course_code: "ACCT3303", subject_area_course_name: "ACCT3303", uoc: 6, faculty: Some("UNSW Business School"), school: Some("School of Acctng, Audit & Tax"), campus: Some("Sydney"), career: Some("Undergraduate"), terms: ["T2", "T3"], classes: [Class { class_id: "1967", section: "CR01", term: "T2 - Teaching Period Two", activity: "Course Enrolment", status: "Open", course_enrolment: "0/3", offering_period: "27/05/2024 - 25/08/2024", meeting_dates: "Standard dates", census_date: "23/06/2024", consent: "Consent not required", mode: "In Person", times: None, class_notes: None }, Class { class_id: "11650", section: "OTH1", term: "T2 - Teaching Period Two", activity: "Other", status: "Open", course_enrolment: "7/10", offering_period: "27/05/2024 - 25/08/2024", meeting_dates: "Standard dates", census_date: "23/06/2024", consent: "Consent not required", mode: "In Person", times: None, class_notes: None }, Class { class_id: "1995", section: "CR01", term: "T3 - Teaching Period Three", activity: "Course Enrolment", status: "Open", course_enrolment: "1/9", offering_period: "09/09/2024 - 08/12/2024", meeting_dates: "Standard dates", census_date: "06/10/2024", consent: "Consent not required", mode: "In Person", times: None, class_notes: None }, Class { class_id: "11870", section: "OTH1", term: "T3 - Teaching Period Three", activity: "Other", status: "Open", course_enrolment: "6/15", offering_period: "09/09/2024 - 08/12/2024", meeting_dates: "Standard dates", census_date: "06/10/2024", consent: "Consent not required", mode: "In Person", times: None, class_notes: None }] })
Ok(Course { subject_area_course_code: "ACCT3563", subject_area_course_name: "ACCT3563", uoc: 6, faculty: Some("UNSW Business School"), school: Some("School of Acctng, Audit & Tax"), campus: Some("Sydney"), career: Some("Undergraduate"), terms: ["T1", "T3"], classes: [Class { class_id: "1515", section: "CR01", term: "T1 - Teaching Period One", activity: "Course Enrolment", status: "Open", course_enrolment: "0/7", offering_period: "12/02/2024 - 12/05/2024", meeting_dates: "Standard dates", census_date: "10/03/2024", consent: "Consent not required", mode: "In Person", times: None, class_notes: None }, Class { class_id: "3531", section: "A", term: "T1 - Teaching Period One", activity: "Lecture", status: "Open", course_enrolment: "65/71", offering_period: "12/02/2024 - 12/05/2024", meeting_dates: "Standard dates", census_date: "10/03/2024", consent: "Consent not required", mode: "In Person", times: None, class_notes: None }, Class { class_id: "3532", section: "M12A", term: "T1 - Teaching Period One", activity: "Tutorial", status: "Open", course_enrolment: "12/17", offering_period: "12/02/2024 - 12/05/2024", meeting_dates: "Standard dates", census_date: "10/03/2024", consent: "Consent not required", mode: "In Person", times: None, class_notes: None }, Class { class_id: "3534", section: "W15A", term: "T1 - Teaching Period One", activity: "Tutorial", status: "Full", course_enrolment: "23/23", offering_period: "12/02/2024 - 12/05/2024", meeting_dates: "Standard dates", census_date: "10/03/2024", consent: "Consent not required", mode: "In Person", times: None, class_notes: None }, Class { class_id: "12514", section: "W15B", term: "T1 - Teaching Period One", activity: "Tutorial", status: "Full", course_enrolment: "15/15", offering_period: "12/02/2024 - 12/05/2024", meeting_dates: "Standard dates", census_date: "10/03/2024", consent: "Consent not required", mode: "In Person", times: None, class_notes: None }, Class { class_id: "3535", section: "W18A", term: "T1 - Teaching Period One", activity: "Tutorial", status: "Open", course_enrolment: "15/16", offering_period: "12/02/2024 - 12/05/2024", meeting_dates: "Standard dates", census_date: "10/03/2024", consent: "Consent not required", mode: "In Person", times: None, class_notes: None }, Class { class_id: "1996", section: "CR01", term: "T3 - Teaching Period Three", activity: "Course Enrolment", status: "Open", course_enrolment: "20/24", offering_period: "09/09/2024 - 08/12/2024", meeting_dates: "Standard dates", census_date: "06/10/2024", consent: "Consent not required", mode: "In Person", times: None, class_notes: None }, Class { class_id: "3769", section: "A", term: "T3 - Teaching Period Three", activity: "Lecture", status: "Open", course_enrolment: "252/276", offering_period: "09/09/2024 - 08/12/2024", meeting_dates: "Standard dates", census_date: "06/10/2024", consent: "Consent not required", mode: "In Person", times: None, class_notes: None }, Class { class_id: "3770", section: "M12A", term: "T3 - Teaching Period Three", activity: "Tutorial", status: "Open", course_enrolment: "11/23", offering_period: "09/09/2024 - 08/12/2024", meeting_dates: "Standard dates", census_date: "06/10/2024", consent: "Consent not required", mode: "In Person", times: None, class_notes: None }, Class { class_id: "3771", section: "T09A", term: "T3 - Teaching Period Three", activity: "Tutorial", status: "Open", course_enrolment: "21/23", offering_period: "09/09/2024 - 08/12/2024", meeting_dates: "Standard dates", census_date: "06/10/2024", consent: "Consent not required", mode: "In Person", times: None, class_notes: None }, Class { class_id: "3772", section: "T10A", term: "T3 - Teaching Period Three", activity: "Tutorial", status: "Full", course_enrolment: "23/23", offering_period: "09/09/2024 - 08/12/2024", meeting_dates: "Standard dates", census_date: "06/10/2024", consent: "Consent not required", mode: "In Person", times: None, class_notes: None }, Class { class_id: "3773", section: "T12A", term: "T3 - Teaching Period Three", activity: "Tutorial", status: "Full", course_enrolment: "23/23", offering_period: "09/09/2024 - 08/12/2024", meeting_dates: "Standard dates", census_date: "06/10/2024", consent: "Consent not required", mode: "In Person", times: None, class_notes: None }, Class { class_id: "3774", section: "T13A", term: "T3 - Teaching Period Three", activity: "Tutorial", status: "Full", course_enrolment: "23/23", offering_period: "09/09/2024 - 08/12/2024", meeting_dates: "Standard dates", census_date: "06/10/2024", consent: "Consent not required", mode: "In Person", times: None, class_notes: None }, Class { class_id: "3775", section: "T15A", term: "T3 - Teaching Period Three", activity: "Tutorial", status: "Full", course_enrolment: "23/23", offering_period: "09/09/2024 - 08/12/2024", meeting_dates: "Standard dates", census_date: "06/10/2024", consent: "Consent not required", mode: "In Person", times: None, class_notes: None }, Class { class_id: "3776", section: "T16A", term: "T3 - Teaching Period Three", activity: "Tutorial", status: "Full", course_enrolment: "23/23", offering_period: "09/09/2024 - 08/12/2024", meeting_dates: "Standard dates", census_date: "06/10/2024", consent: "Consent not required", mode: "In Person", times: None, class_notes: None }, Class { class_id: "3777", section: "T18A", term: "T3 - Teaching Period Three", activity: "Tutorial", status: "Open", course_enrolment: "20/23", offering_period: "09/09/2024 - 08/12/2024", meeting_dates: "Standard dates", census_date: "06/10/2024", consent: "Consent not required", mode: "In Person", times: None, class_notes: None }, Class { class_id: "3778", section: "W10A", term: "T3 - Teaching Period Three", activity: "Tutorial", status: "Open", course_enrolment: "17/23", offering_period: "09/09/2024 - 08/12/2024", meeting_dates: "Standard dates", census_date: "06/10/2024", consent: "Consent not required", mode: "In Person", times: None, class_notes: None }, Class { class_id: "3779", section: "W11A", term: "T3 - Teaching Period Three", activity: "Tutorial", status: "Full", course_enrolment: "23/23", offering_period: "09/09/2024 - 08/12/2024", meeting_dates: "Standard dates", census_date: "06/10/2024", consent: "Consent not required", mode: "In Person", times: None, class_notes: None }, Class { class_id: "3780", section: "W16A", term: "T3 - Teaching Period Three", activity: "Tutorial", status: "Full", course_enrolment: "23/23", offering_period: "09/09/2024 - 08/12/2024", meeting_dates: "Standard dates", census_date: "06/10/2024", consent: "Consent not required", mode: "In Person", times: None, class_notes: None }, Class { class_id: "3781", section: "W18A", term: "T3 - Teaching Period Three", activity: "Tutorial", status: "Open", course_enrolment: "22/23", offering_period: "09/09/2024 - 08/12/2024", meeting_dates: "Standard dates", census_date: "06/10/2024", consent: "Consent not required", mode: "In Person", times: None, class_notes: None }] })
Ok(Course { subject_area_course_code: "ACCT3583", subject_area_course_name: "ACCT3583", uoc: 6, faculty: Some("UNSW Business School"), school: Some("School of Acctng, Audit & Tax"), campus: Some("Sydney"), career: Some("Undergraduate"), terms: ["T1", "T3"], classes: [Class { class_id: "1516", section: "CR01", term: "T1 - Teaching Period One", activity: "Course Enrolment", status: "Open", course_enrolment: "0/11", offering_period: "12/02/2024 - 12/05/2024", meeting_dates: "Standard dates", census_date: "10/03/2024", consent: "Consent not required", mode: "In Person", times: None, class_notes: None }, Class { class_id: "3536", section: "F12A", term: "T1 - Teaching Period One", activity: "Seminar", status: "Open", course_enrolment: "40/42", offering_period: "12/02/2024 - 12/05/2024", meeting_dates: "Standard dates", census_date: "10/03/2024", consent: "Consent not required", mode: "In Person", times: None, class_notes: None }, Class { class_id: "3537", section: "T15A", term: "T1 - Teaching Period One", activity: "Seminar", status: "Full", course_enrolment: "42/42", offering_period: "12/02/2024 - 12/05/2024", meeting_dates: "Standard dates", census_date: "10/03/2024", consent: "Consent not required", mode: "In Person", times: None, class_notes: None }, Class { class_id: "3538", section: "W12A", term: "T1 - Teaching Period One", activity: "Seminar", status: "Open", course_enrolment: "37/38", offering_period: "12/02/2024 - 12/05/2024", meeting_dates: "Standard dates", census_date: "10/03/2024", consent: "Consent not required", mode: "In Person", times: None, class_notes: None }, Class { class_id: "3539", section: "W18A", term: "T1 - Teaching Period One", activity: "Seminar", status: "Open", course_enrolment: "33/36", offering_period: "12/02/2024 - 12/05/2024", meeting_dates: "Standard dates", census_date: "10/03/2024", consent: "Consent not required", mode: "In Person", times: None, class_notes: None }, Class { class_id: "1997", section: "CR01", term: "T3 - Teaching Period Three", activity: "Course Enrolment", status: "Full", course_enrolment: "11/11", offering_period: "09/09/2024 - 08/12/2024", meeting_dates: "Standard dates", census_date: "06/10/2024", consent: "Consent not required", mode: "In Person", times: None, class_notes: None }, Class { class_id: "3783", section: "H18A", term: "T3 - Teaching Period Three", activity: "Seminar", status: "Open", course_enrolment: "25/36", offering_period: "09/09/2024 - 08/12/2024", meeting_dates: "Standard dates", census_date: "06/10/2024", consent: "Consent not required", mode: "In Person", times: None, class_notes: None }, Class { class_id: "3785", section: "T09A", term: "T3 - Teaching Period Three", activity: "Seminar", status: "Full", course_enrolment: "36/36", offering_period: "09/09/2024 - 08/12/2024", meeting_dates: "Standard dates", census_date: "06/10/2024", consent: "Consent not required", mode: "In Person", times: None, class_notes: None }, Class { class_id: "3786", section: "T15A", term: "T3 - Teaching Period Three", activity: "Seminar", status: "Full", course_enrolment: "36/36", offering_period: "09/09/2024 - 08/12/2024", meeting_dates: "Standard dates", census_date: "06/10/2024", consent: "Consent not required", mode: "In Person", times: None, class_notes: None }, Class { class_id: "3787", section: "W15A", term: "T3 - Teaching Period Three", activity: "Seminar", status: "Full", course_enrolment: "36/36", offering_period: "09/09/2024 - 08/12/2024", meeting_dates: "Standard dates", census_date: "06/10/2024", consent: "Consent not required", mode: "In Person", times: None, class_notes: None }] })
Ok(Course { subject_area_course_code: "ACCT3601", subject_area_course_name: "ACCT3601", uoc: 6, faculty: Some("UNSW Business School"), school: Some("School of Acctng, Audit & Tax"), campus: Some("Sydney"), career: Some("Undergraduate"), terms: ["T3"], classes: [Class { class_id: "1998", section: "CR01", term: "T3 - Teaching Period Three", activity: "Course Enrolment", status: "Open", course_enrolment: "2/19", offering_period: "09/09/2024 - 08/12/2024", meeting_dates: "Standard dates", census_date: "06/10/2024", consent: "Consent not required", mode: "In Person", times: None, class_notes: None }, Class { class_id: "3788", section: "F12A", term: "T3 - Teaching Period Three", activity: "Seminar", status: "Open", course_enrolment: "26/45", offering_period: "09/09/2024 - 08/12/2024", meeting_dates: "Standard dates", census_date: "06/10/2024", consent: "Consent not required", mode: "In Person", times: None, class_notes: None }] })
Ok(Course { subject_area_course_code: "ACCT3610", subject_area_course_name: "ACCT3610", uoc: 6, faculty: Some("UNSW Business School"), school: Some("School of Acctng, Audit & Tax"), campus: Some("Sydney"), career: Some("Undergraduate"), terms: ["T1", "T2"], classes: [Class { class_id: "1517", section: "CR01", term: "T1 - Teaching Period One", activity: "Course Enrolment", status: "Open", course_enrolment: "0/27", offering_period: "12/02/2024 - 12/05/2024", meeting_dates: "Standard dates", census_date: "10/03/2024", consent: "Consent not required", mode: "In Person", times: None, class_notes: None }, Class { class_id: "6084", section: "W12A", term: "T1 - Teaching Period One", activity: "Seminar", status: "Open", course_enrolment: "18/45", offering_period: "12/02/2024 - 12/05/2024", meeting_dates: "Standard dates", census_date: "10/03/2024", consent: "Consent not required", mode: "In Person", times: None, class_notes: None }, Class { class_id: "1966", section: "CR01", term: "T2 - Teaching Period Two", activity: "Course Enrolment", status: "Open", course_enrolment: "0/26", offering_period: "27/05/2024 - 25/08/2024", meeting_dates: "Standard dates", census_date: "23/06/2024", consent: "Consent not required", mode: "In Person", times: None, class_notes: None }, Class { class_id: "5950", section: "W14A", term: "T2 - Teaching Period Two", activity: "Seminar", status: "Open", course_enrolment: "24/50", offering_period: "27/05/2024 - 25/08/2024", meeting_dates: "Standard dates", census_date: "23/06/2024", consent: "Consent not required", mode: "In Person", times: None, class_notes: None }] })
Ok(Course { subject_area_course_code: "ACCT3625", subject_area_course_name: "ACCT3625", uoc: 6, faculty: Some("UNSW Business School"), school: Some("School of Acctng, Audit & Tax"), campus: Some("Sydney"), career: Some("Undergraduate"), terms: ["T3"], classes: [Class { class_id: "1999", section: "CR01", term: "T3 - Teaching Period Three", activity: "Course Enrolment", status: "Open", course_enrolment: "1/29", offering_period: "09/09/2024 - 08/12/2024", meeting_dates: "Standard dates", census_date: "06/10/2024", consent: "Consent not required", mode: "In Person", times: None, class_notes: None }, Class { class_id: "9711", section: "W13A", term: "T3 - Teaching Period Three", activity: "Seminar", status: "Open", course_enrolment: "11/40", offering_period: "09/09/2024 - 08/12/2024", meeting_dates: "Standard dates", census_date: "06/10/2024", consent: "Consent not required", mode: "In Person", times: None, class_notes: None }] })
Ok(Course { subject_area_course_code: "ACCT3672", subject_area_course_name: "ACCT3672", uoc: 6, faculty: Some("UNSW Business School"), school: Some("School of Acctng, Audit & Tax"), campus: Some("Sydney"), career: Some("Undergraduate"), terms: ["T2"], classes: [Class { class_id: "1965", section: "CR01", term: "T2 - Teaching Period Two", activity: "Course Enrolment", status: "Open", course_enrolment: "0/8", offering_period: "27/05/2024 - 25/08/2024", meeting_dates: "Standard dates", census_date: "23/06/2024", consent: "Consent not required", mode: "In Person", times: None, class_notes: None }, Class { class_id: "9958", section: "A", term: "T2 - Teaching Period Two", activity: "Lecture", status: "Open", course_enrolment: "26/32", offering_period: "27/05/2024 - 25/08/2024", meeting_dates: "Standard dates", census_date: "23/06/2024", consent: "Consent not required", mode: "In Person", times: None, class_notes: None }, Class { class_id: "9959", section: "T12A", term: "T2 - Teaching Period Two", activity: "Tutorial", status: "Open", course_enrolment: "11/16", offering_period: "27/05/2024 - 25/08/2024", meeting_dates: "Standard dates", census_date: "23/06/2024", consent: "Consent not required", mode: "In Person", times: None, class_notes: None }, Class { class_id: "9960", section: "T13A", term: "T2 - Teaching Period Two", activity: "Tutorial", status: "Open", course_enrolment: "15/16", offering_period: "27/05/2024 - 25/08/2024", meeting_dates: "Standard dates", census_date: "23/06/2024", consent: "Consent not required", mode: "In Person", times: None, class_notes: None }] })
Ok(Course { subject_area_course_code: "ACCT3708", subject_area_course_name: "ACCT3708", uoc: 6, faculty: Some("UNSW Business School"), school: Some("School of Acctng, Audit & Tax"), campus: Some("Sydney"), career: Some("Undergraduate"), terms: ["T1", "T3"], classes: [Class { class_id: "1518", section: "CR01", term: "T1 - Teaching Period One", activity: "Course Enrolment", status: "Open", course_enrolment: "0/11", offering_period: "12/02/2024 - 12/05/2024", meeting_dates: "Standard dates", census_date: "10/03/2024", consent: "Consent not required", mode: "In Person", times: None, class_notes: None }, Class { class_id: "3540", section: "A", term: "T1 - Teaching Period One", activity: "Lecture", status: "Open", course_enrolment: "107/116", offering_period: "12/02/2024 - 12/05/2024", meeting_dates: "Standard dates", census_date: "10/03/2024", consent: "Consent not required", mode: "In Person", times: None, class_notes: None }, Class { class_id: "3541", section: "T12A", term: "T1 - Teaching Period One", activity: "Tutorial", status: "Open", course_enrolment: "22/23", offering_period: "12/02/2024 - 12/05/2024", meeting_dates: "Standard dates", census_date: "10/03/2024", consent: "Consent not required", mode: "In Person", times: None, class_notes: None }, Class { class_id: "3542", section: "T13A", term: "T1 - Teaching Period One", activity: "Tutorial", status: "Open", course_enrolment: "20/23", offering_period: "12/02/2024 - 12/05/2024", meeting_dates: "Standard dates", census_date: "10/03/2024", consent: "Consent not required", mode: "In Person", times: None, class_notes: None }, Class { class_id: "3544", section: "W15A", term: "T1 - Teaching Period One", activity: "Tutorial", status: "Open", course_enrolment: "22/23", offering_period: "12/02/2024 - 12/05/2024", meeting_dates: "Standard dates", census_date: "10/03/2024", consent: "Consent not required", mode: "In Person", times: None, class_notes: None }, Class { class_id: "3545", section: "W16A", term: "T1 - Teaching Period One", activity: "Tutorial", status: "Full", course_enrolment: "24/24", offering_period: "12/02/2024 - 12/05/2024", meeting_dates: "Standard dates", census_date: "10/03/2024", consent: "Consent not required", mode: "In Person", times: None, class_notes: None }, Class { class_id: "3546", section: "W18A", term: "T1 - Teaching Period One", activity: "Tutorial", status: "Open", course_enrolment: "19/23", offering_period: "12/02/2024 - 12/05/2024", meeting_dates: "Standard dates", census_date: "10/03/2024", consent: "Consent not required", mode: "In Person", times: None, class_notes: None }, Class { class_id: "2000", section: "CR01", term: "T3 - Teaching Period Three", activity: "Course Enrolment", status: "Open", course_enrolment: "11/22", offering_period: "09/09/2024 - 08/12/2024", meeting_dates: "Standard dates", census_date: "06/10/2024", consent: "Consent not required", mode: "In Person", times: None, class_notes: None }, Class { class_id: "3789", section: "A", term: "T3 - Teaching Period Three", activity: "Lecture", status: "Open", course_enrolment: "116/138", offering_period: "09/09/2024 - 08/12/2024", meeting_dates: "Standard dates", census_date: "06/10/2024", consent: "Consent not required", mode: "In Person", times: None, class_notes: None }, Class { class_id: "3790", section: "M15A", term: "T3 - Teaching Period Three", activity: "Tutorial", status: "Open", course_enrolment: "21/23", offering_period: "09/09/2024 - 08/12/2024", meeting_dates: "Standard dates", census_date: "06/10/2024", consent: "Consent not required", mode: "In Person", times: None, class_notes: None }, Class { class_id: "3793", section: "T12A", term: "T3 - Teaching Period Three", activity: "Tutorial", status: "Full", course_enrolment: "23/23", offering_period: "09/09/2024 - 08/12/2024", meeting_dates: "Standard dates", census_date: "06/10/2024", consent: "Consent not required", mode: "In Person", times: None, class_notes: None }, Class { class_id: "3794", section: "T13A", term: "T3 - Teaching Period Three", activity: "Tutorial", status: "Full", course_enrolment: "23/23", offering_period: "09/09/2024 - 08/12/2024", meeting_dates: "Standard dates", census_date: "06/10/2024", consent: "Consent not required", mode: "In Person", times: None, class_notes: None }, Class { class_id: "3795", section: "W15A", term: "T3 - Teaching Period Three", activity: "Tutorial", status: "Open", course_enrolment: "22/23", offering_period: "09/09/2024 - 08/12/2024", meeting_dates: "Standard dates", census_date: "06/10/2024", consent: "Consent not required", mode: "In Person", times: None, class_notes: None }, Class { class_id: "3796", section: "W16A", term: "T3 - Teaching Period Three", activity: "Tutorial", status: "Open", course_enrolment: "15/23", offering_period: "09/09/2024 - 08/12/2024", meeting_dates: "Standard dates", census_date: "06/10/2024", consent: "Consent not required", mode: "In Person", times: None, class_notes: None }, Class { class_id: "3797", section: "W18A", term: "T3 - Teaching Period Three", activity: "Tutorial", status: "Open", course_enrolment: "12/23", offering_period: "09/09/2024 - 08/12/2024", meeting_dates: "Standard dates", census_date: "06/10/2024", consent: "Consent not required", mode: "In Person", times: None, class_notes: None }] })
Ok(Course { subject_area_course_code: "ACCT3995", subject_area_course_name: "ACCT3995", uoc: 6, faculty: Some("UNSW Business School"), school: Some("School of Acctng, Audit & Tax"), campus: Some("Sydney"), career: Some("Undergraduate"), terms: ["T2"], classes: [Class { class_id: "3400", section: "CR01", term: "T2 - Teaching Period Two", activity: "Course Enrolment", status: "Open", course_enrolment: "0/12", offering_period: "27/05/2024 - 25/08/2024", meeting_dates: "Standard dates", census_date: "23/06/2024", consent: "Consent not required", mode: "In Person", times: None, class_notes: None }, Class { class_id: "11975", section: "T14A", term: "T2 - Teaching Period Two", activity: "Seminar", status: "Open", course_enrolment: "38/50", offering_period: "27/05/2024 - 25/08/2024", meeting_dates: "Standard dates", census_date: "23/06/2024", consent: "Consent not required", mode: "In Person", times: None, class_notes: None }] })
Ok(Course { subject_area_course_code: "ACCT4796", subject_area_course_name: "ACCT4796", uoc: 6, faculty: Some("UNSW Business School"), school: Some("School of Acctng, Audit & Tax"), campus: Some("Sydney"), career: Some("Undergraduate"), terms: ["T1"], classes: [Class { class_id: "1519", section: "CR01", term: "T1 - Teaching Period One", activity: "Course Enrolment", status: "Open", course_enrolment: "0/27", offering_period: "12/02/2024 - 12/05/2024", meeting_dates: "Standard dates", census_date: "10/03/2024", consent: "Consent not required", mode: "Research", times: None, class_notes: None }, Class { class_id: "11385", section: "THE1", term: "T1 - Teaching Period One", activity: "Thesis Research", status: "Open", course_enrolment: "3/30", offering_period: "12/02/2024 - 12/05/2024", meeting_dates: "Standard dates", census_date: "10/03/2024", consent: "Consent not required", mode: "Research", times: None, class_notes: None }] })
Ok(Course { subject_area_course_code: "ACCT4797", subject_area_course_name: "ACCT4797", uoc: 6, faculty: Some("UNSW Business School"), school: Some("School of Acctng, Audit & Tax"), campus: Some("Sydney"), career: Some("Undergraduate"), terms: ["T2"], classes: [Class { class_id: "1962", section: "CR01", term: "T2 - Teaching Period Two", activity: "Course Enrolment", status: "Open", course_enrolment: "0/7", offering_period: "27/05/2024 - 25/08/2024", meeting_dates: "Standard dates", census_date: "23/06/2024", consent: "Consent not required", mode: "Research", times: None, class_notes: None }, Class { class_id: "11786", section: "THE1", term: "T2 - Teaching Period Two", activity: "Thesis Research", status: "Open", course_enrolment: "3/10", offering_period: "27/05/2024 - 25/08/2024", meeting_dates: "Standard dates", census_date: "23/06/2024", consent: "Consent not required", mode: "Research", times: None, class_notes: None }] })
Ok(Course { subject_area_course_code: "ACCT4798", subject_area_course_name: "ACCT4798", uoc: 12, faculty: Some("UNSW Business School"), school: Some("School of Acctng, Audit & Tax"), campus: Some("Sydney"), career: Some("Undergraduate"), terms: ["T3"], classes: [Class { class_id: "2001", section: "CR01", term: "T3 - Teaching Period Three", activity: "Course Enrolment", status: "Open", course_enrolment: "3/10", offering_period: "09/09/2024 - 08/12/2024", meeting_dates: "Standard dates", census_date: "06/10/2024", consent: "Consent not required", mode: "Research", times: None, class_notes: None }, Class { class_id: "11994", section: "THE1", term: "T3 - Teaching Period Three", activity: "Thesis Research", status: "Open", course_enrolment: "0/10", offering_period: "09/09/2024 - 08/12/2024", meeting_dates: "Standard dates", census_date: "06/10/2024", consent: "Consent not required", mode: "Research", times: None, class_notes: None }] })
Ok(Course { subject_area_course_code: "ACCT4809", subject_area_course_name: "ACCT4809", uoc: 6, faculty: Some("UNSW Business School"), school: Some("School of Acctng, Audit & Tax"), campus: Some("Sydney"), career: Some("Undergraduate"), terms: ["T2"], classes: [Class { class_id: "1961", section: "CR01", term: "T2 - Teaching Period Two", activity: "Course Enrolment", status: "Open", course_enrolment: "0/7", offering_period: "27/05/2024 - 25/08/2024", meeting_dates: "Standard dates", census_date: "23/06/2024", consent: "Consent not required", mode: "In Person", times: None, class_notes: None }, Class { class_id: "11409", section: "SEM1", term: "T2 - Teaching Period Two", activity: "Seminar", status: "Open", course_enrolment: "3/10", offering_period: "27/05/2024 - 25/08/2024", meeting_dates: "Standard dates", census_date: "23/06/2024", consent: "Consent not required", mode: "In Person", times: None, class_notes: None }] })
Ok(Course { subject_area_course_code: "ACCT4851", subject_area_course_name: "ACCT4851", uoc: 6, faculty: Some("UNSW Business School"), school: Some("School of Acctng, Audit & Tax"), campus: Some("Sydney"), career: Some("Undergraduate"), terms: ["T1"], classes: [Class { class_id: "1520", section: "CR01", term: "T1 - Teaching Period One", activity: "Course Enrolment", status: "Open", course_enrolment: "0/27", offering_period: "12/02/2024 - 12/05/2024", meeting_dates: "Standard dates", census_date: "10/03/2024", consent: "Consent not required", mode: "In Person", times: None, class_notes: None }, Class { class_id: "11037", section: "SEM1", term: "T1 - Teaching Period One", activity: "Seminar", status: "Open", course_enrolment: "3/30", offering_period: "12/02/2024 - 12/05/2024", meeting_dates: "Standard dates", census_date: "10/03/2024", consent: "Consent not required", mode: "In Person", times: None, class_notes: None }] })
Ok(Course { subject_area_course_code: "ACCT4852", subject_area_course_name: "ACCT4852", uoc: 6, faculty: Some("UNSW Business School"), school: Some("School of Acctng, Audit & Tax"), campus: Some("Sydney"), career: Some("Undergraduate"), terms: ["T1"], classes: [Class { class_id: "1521", section: "CR01", term: "T1 - Teaching Period One", activity: "Course Enrolment", status: "Open", course_enrolment: "0/27", offering_period: "12/02/2024 - 12/05/2024", meeting_dates: "Standard dates", census_date: "10/03/2024", consent: "Consent not required", mode: "In Person", times: None, class_notes: None }, Class { class_id: "11038", section: "SEM1", term: "T1 - Teaching Period One", activity: "Seminar", status: "Open", course_enrolment: "3/30", offering_period: "12/02/2024 - 12/05/2024", meeting_dates: "Standard dates", census_date: "10/03/2024", consent: "Consent not required", mode: "In Person", times: None, class_notes: None }] })
Ok(Course { subject_area_course_code: "ACCT4897", subject_area_course_name: "ACCT4897", uoc: 6, faculty: Some("UNSW Business School"), school: Some("School of Acctng, Audit & Tax"), campus: Some("Sydney"), career: Some("Undergraduate"), terms: ["T1"], classes: [Class { class_id: "1522", section: "CR01", term: "T1 - Teaching Period One", activity: "Course Enrolment", status: "Open", course_enrolment: "0/27", offering_period: "12/02/2024 - 12/05/2024", meeting_dates: "Standard dates", census_date: "10/03/2024", consent: "Consent not required", mode: "In Person", times: None, class_notes: None }, Class { class_id: "11039", section: "SEM1", term: "T1 - Teaching Period One", activity: "Seminar", status: "Open", course_enrolment: "3/30", offering_period: "12/02/2024 - 12/05/2024", meeting_dates: "Standard dates", census_date: "10/03/2024", consent: "Consent not required", mode: "In Person", times: None, class_notes: None }] })
Ok(Course { subject_area_course_code: "ACCT5906", subject_area_course_name: "ACCT5906", uoc: 6, faculty: Some("UNSW Business School"), school: Some("School of Acctng, Audit & Tax"), campus: Some("Sydney"), career: Some("Postgraduate"), terms: ["T1"], classes: [Class { class_id: "1874", section: "CR01", term: "T1 - Teaching Period One", activity: "Course Enrolment", status: "Open", course_enrolment: "0/5", offering_period: "12/02/2024 - 12/05/2024", meeting_dates: "Standard dates", census_date: "10/03/2024", consent: "Consent not required", mode: "In Person", times: None, class_notes: None }, Class { class_id: "7862", section: "W13A", term: "T1 - Teaching Period One", activity: "Seminar", status: "Open", course_enrolment: "47/52", offering_period: "12/02/2024 - 12/05/2024", meeting_dates: "Standard dates", census_date: "10/03/2024", consent: "Consent not required", mode: "In Person", times: None, class_notes: None }] })
Ok(Course { subject_area_course_code: "ACCT5907", subject_area_course_name: "ACCT5907", uoc: 6, faculty: Some("UNSW Business School"), school: Some("School of Acctng, Audit & Tax"), campus: Some("Sydney"), career: Some("Postgraduate"), terms: ["T1", "T3"], classes: [Class { class_id: "1875", section: "CR01", term: "T1 - Teaching Period One", activity: "Course Enrolment", status: "Open", course_enrolment: "0/23", offering_period: "12/02/2024 - 12/05/2024", meeting_dates: "Standard dates", census_date: "10/03/2024", consent: "Consent not required", mode: "In Person", times: None, class_notes: None }, Class { class_id: "6835", section: "H09A", term: "T1 - Teaching Period One", activity: "Seminar", status: "Open", course_enrolment: "44/53", offering_period: "12/02/2024 - 12/05/2024", meeting_dates: "Standard dates", census_date: "10/03/2024", consent: "Consent not required", mode: "In Person", times: None, class_notes: None }, Class { class_id: "6836", section: "H15A", term: "T1 - Teaching Period One", activity: "Seminar", status: "Open", course_enrolment: "48/53", offering_period: "12/02/2024 - 12/05/2024", meeting_dates: "Standard dates", census_date: "10/03/2024", consent: "Consent not required", mode: "In Person", times: None, class_notes: None }, Class { class_id: "6838", section: "T18A", term: "T1 - Teaching Period One", activity: "Seminar", status: "Open", course_enrolment: "50/53", offering_period: "12/02/2024 - 12/05/2024", meeting_dates: "Standard dates", census_date: "10/03/2024", consent: "Consent not required", mode: "In Person", times: None, class_notes: None }, Class { class_id: "6839", section: "W11A", term: "T1 - Teaching Period One", activity: "Seminar", status: "Open", course_enrolment: "52/53", offering_period: "12/02/2024 - 12/05/2024", meeting_dates: "Standard dates", census_date: "10/03/2024", consent: "Consent not required", mode: "In Person", times: None, class_notes: None }, Class { class_id: "6840", section: "W15A", term: "T1 - Teaching Period One", activity: "Seminar", status: "Open", course_enrolment: "49/53", offering_period: "12/02/2024 - 12/05/2024", meeting_dates: "Standard dates", census_date: "10/03/2024", consent: "Consent not required", mode: "In Person", times: None, class_notes: None }, Class { class_id: "1003", section: "CR01", term: "T3 - Teaching Period Three", activity: "Course Enrolment", status: "Open", course_enrolment: "15/44", offering_period: "09/09/2024 - 08/12/2024", meeting_dates: "Standard dates", census_date: "06/10/2024", consent: "Consent not required", mode: "In Person", times: None, class_notes: None }, Class { class_id: "6771", section: "H09A", term: "T3 - Teaching Period Three", activity: "Seminar", status: "Full", course_enrolment: "43/43", offering_period: "09/09/2024 - 08/12/2024", meeting_dates: "Standard dates", census_date: "06/10/2024", consent: "Consent not required", mode: "In Person", times: None, class_notes: None }, Class { class_id: "6774", section: "T09A", term: "T3 - Teaching Period Three", activity: "Seminar", status: "Open", course_enrolment: "39/43", offering_period: "09/09/2024 - 08/12/2024", meeting_dates: "Standard dates", census_date: "06/10/2024", consent: "Consent not required", mode: "In Person", times: None, class_notes: None }, Class { class_id: "6775", section: "T18A", term: "T3 - Teaching Period Three", activity: "Seminar", status: "Open", course_enrolment: "3/43", offering_period: "09/09/2024 - 08/12/2024", meeting_dates: "Standard dates", census_date: "06/10/2024", consent: "Consent not required", mode: "In Person", times: None, class_notes: None }, Class { class_id: "6776", section: "W12A", term: "T3 - Teaching Period Three", activity: "Seminar", status: "Full", course_enrolment: "43/43", offering_period: "09/09/2024 - 08/12/2024", meeting_dates: "Standard dates", census_date: "06/10/2024", consent: "Consent not required", mode: "In Person", times: None, class_notes: None }] })
Ok(Course { subject_area_course_code: "ACCT5908", subject_area_course_name: "ACCT5908", uoc: 6, faculty: Some("UNSW Business School"), school: Some("School of Acctng, Audit & Tax"), campus: Some("Sydney"), career: Some("Postgraduate"), terms: ["U1", "T1", "T3"], classes: [Class { class_id: "1219", section: "CR01", term: "U1 - Summer Teaching Period", activity: "Course Enrolment", status: "Open", course_enrolment: "0/27", offering_period: "01/01/2024 - 11/02/2024", meeting_dates: "Standard dates", census_date: "14/01/2024", consent: "Consent not required", mode: "In Person", times: None, class_notes: None }, Class { class_id: "1673", section: "A", term: "U1 - Summer Teaching Period", activity: "Lecture", status: "Open", course_enrolment: "23/50", offering_period: "01/01/2024 - 11/02/2024", meeting_dates: "Standard dates", census_date: "14/01/2024", consent: "Consent not required", mode: "In Person", times: Some([Time { day: "Thu", time: "14:00 - 17:00", location: "", weeks: "", instructor: None }]), class_notes: None }, Class { class_id: "1876", section: "CR01", term: "T1 - Teaching Period One", activity: "Course Enrolment", status: "Open", course_enrolment: "0/13", offering_period: "12/02/2024 - 12/05/2024", meeting_dates: "Standard dates", census_date: "10/03/2024", consent: "Consent not required", mode: "In Person", times: None, class_notes: None }, Class { class_id: "3547", section: "H09A", term: "T1 - Teaching Period One", activity: "Seminar", status: "Open", course_enrolment: "32/45", offering_period: "12/02/2024 - 12/05/2024", meeting_dates: "Standard dates", census_date: "10/03/2024", consent: "Consent not required", mode: "In Person", times: None, class_notes: None }, Class { class_id: "3548", section: "H12A", term: "T1 - Teaching Period One", activity: "Seminar", status: "Full", course_enrolment: "45/45", offering_period: "12/02/2024 - 12/05/2024", meeting_dates: "Standard dates", census_date: "10/03/2024", consent: "Consent not required", mode: "In Person", times: None, class_notes: None }, Class { class_id: "1004", section: "CR01", term: "T3 - Teaching Period Three", activity: "Course Enrolment", status: "Open", course_enrolment: "9/38", offering_period: "09/09/2024 - 08/12/2024", meeting_dates: "Standard dates", census_date: "06/10/2024", consent: "Consent not required", mode: "In Person", times: None, class_notes: None }, Class { class_id: "3798", section: "H09A", term: "T3 - Teaching Period Three", activity: "Seminar", status: "Open", course_enrolment: "8/36", offering_period: "09/09/2024 - 08/12/2024", meeting_dates: "Standard dates", census_date: "06/10/2024", consent: "Consent not required", mode: "In Person", times: None, class_notes: None }, Class { class_id: "3799", section: "H15A", term: "T3 - Teaching Period Three", activity: "Seminar", status: "Open", course_enrolment: "27/36", offering_period: "09/09/2024 - 08/12/2024", meeting_dates: "Standard dates", census_date: "06/10/2024", consent: "Consent not required", mode: "In Person", times: None, class_notes: None }, Class { class_id: "3801", section: "W13A", term: "T3 - Teaching Period Three", activity: "Seminar", status: "Full", course_enrolment: "36/36", offering_period: "09/09/2024 - 08/12/2024", meeting_dates: "Standard dates", census_date: "06/10/2024", consent: "Consent not required", mode: "In Person", times: None, class_notes: None }, Class { class_id: "3802", section: "W18A", term: "T3 - Teaching Period Three", activity: "Seminar", status: "Open", course_enrolment: "35/36", offering_period: "09/09/2024 - 08/12/2024", meeting_dates: "Standard dates", census_date: "06/10/2024", consent: "Consent not required", mode: "In Person", times: None, class_notes: None }] })
Ok(Course { subject_area_course_code: "ACCT5909", subject_area_course_name: "ACCT5909", uoc: 6, faculty: Some("UNSW Business School"), school: Some("School of Acctng, Audit & Tax"), campus: Some("Sydney"), career: Some("Postgraduate"), terms: ["T2"], classes: [Class { class_id: "2899", section: "CR01", term: "T2 - Teaching Period Two", activity: "Course Enrolment", status: "Open", course_enrolment: "0/6", offering_period: "27/05/2024 - 25/08/2024", meeting_dates: "Standard dates", census_date: "23/06/2024", consent: "School consent required", mode: "Multimodal", times: None, class_notes: None }, Class { class_id: "11410", section: "SEM1", term: "T2 - Teaching Period Two", activity: "Seminar", status: "Open", course_enrolment: "4/10", offering_period: "27/05/2024 - 25/08/2024", meeting_dates: "Standard dates", census_date: "23/06/2024", consent: "School consent required", mode: "In Person", times: None, class_notes: None }] })
Ok(Course { subject_area_course_code: "ACCT5910", subject_area_course_name: "ACCT5910", uoc: 6, faculty: Some("UNSW Business School"), school: Some("School of Acctng, Audit & Tax"), campus: Some("Sydney"), career: Some("Postgraduate"), terms: ["T1", "T2"], classes: [Class { class_id: "1877", section: "CR01", term: "T1 - Teaching Period One", activity: "Course Enrolment", status: "Open", course_enrolment: "0/3", offering_period: "12/02/2024 - 12/05/2024", meeting_dates: "Standard dates", census_date: "10/03/2024", consent: "Consent not required", mode: "In Person", times: None, class_notes: None }, Class { class_id: "3550", section: "M09A", term: "T1 - Teaching Period One", activity: "Seminar", status: "Full", course_enrolment: "52/52", offering_period: "12/02/2024 - 12/05/2024", meeting_dates: "Standard dates", census_date: "10/03/2024", consent: "Consent not required", mode: "In Person", times: None, class_notes: None }, Class { class_id: "3551", section: "T12A", term: "T1 - Teaching Period One", activity: "Seminar", status: "Open", course_enrolment: "58/60", offering_period: "12/02/2024 - 12/05/2024", meeting_dates: "Standard dates", census_date: "10/03/2024", consent: "Consent not required", mode: "In Person", times: None, class_notes: None }, Class { class_id: "3552", section: "T18A", term: "T1 - Teaching Period One", activity: "Seminar", status: "Open", course_enrolment: "51/52", offering_period: "12/02/2024 - 12/05/2024", meeting_dates: "Standard dates", census_date: "10/03/2024", consent: "Consent not required", mode: "In Person", times: None, class_notes: None }, Class { class_id: "2898", section: "CR01", term: "T2 - Teaching Period Two", activity: "Course Enrolment", status: "Open", course_enrolment: "0/30", offering_period: "27/05/2024 - 25/08/2024", meeting_dates: "Standard dates", census_date: "23/06/2024", consent: "Consent not required", mode: "In Person", times: None, class_notes: None }, Class { class_id: "3658", section: "T11A", term: "T2 - Teaching Period Two", activity: "Seminar", status: "Open", course_enrolment: "38/45", offering_period: "27/05/2024 - 25/08/2024", meeting_dates: "Standard dates", census_date: "23/06/2024", consent: "Consent not required", mode: "In Person", times: None, class_notes: None }, Class { class_id: "3659", section: "T14A", term: "T2 - Teaching Period Two", activity: "Seminar", status: "Open", course_enrolment: "40/45", offering_period: "27/05/2024 - 25/08/2024", meeting_dates: "Standard dates", census_date: "23/06/2024", consent: "Consent not required", mode: "In Person", times: None, class_notes: None }, Class { class_id: "3660", section: "T18A", term: "T2 - Teaching Period Two", activity: "Seminar", status: "Open", course_enrolment: "33/45", offering_period: "27/05/2024 - 25/08/2024", meeting_dates: "Standard dates", census_date: "23/06/2024", consent: "Consent not required", mode: "In Person", times: None, class_notes: None }, Class { class_id: "3661", section: "W18A", term: "T2 - Teaching Period Two", activity: "Seminar", status: "Open", course_enrolment: "39/45", offering_period: "27/05/2024 - 25/08/2024", meeting_dates: "Standard dates", census_date: "23/06/2024", consent: "Consent not required", mode: "In Person", times: None, class_notes: None }] })
Ok(Course { subject_area_course_code: "ACCT5919", subject_area_course_name: "ACCT5919", uoc: 6, faculty: Some("UNSW Business School"), school: Some("School of Acctng, Audit & Tax"), campus: Some("Sydney"), career: Some("Postgraduate"), terms: ["T2", "T3"], classes: [Class { class_id: "2897", section: "CR01", term: "T2 - Teaching Period Two", activity: "Course Enrolment", status: "Open", course_enrolment: "0/6", offering_period: "27/05/2024 - 25/08/2024", meeting_dates: "Standard dates", census_date: "23/06/2024", consent: "Consent not required", mode: "In Person", times: None, class_notes: None }, Class { class_id: "3663", section: "H14A", term: "T2 - Teaching Period Two", activity: "Seminar", status: "Full", course_enrolment: "54/54", offering_period: "27/05/2024 - 25/08/2024", meeting_dates: "Standard dates", census_date: "23/06/2024", consent: "Consent not required", mode: "In Person", times: None, class_notes: None }, Class { class_id: "3664", section: "H18A", term: "T2 - Teaching Period Two", activity: "Seminar", status: "Open", course_enrolment: "53/54", offering_period: "27/05/2024 - 25/08/2024", meeting_dates: "Standard dates", census_date: "23/06/2024", consent: "Consent not required", mode: "In Person", times: None, class_notes: None }, Class { class_id: "3665", section: "M18A", term: "T2 - Teaching Period Two", activity: "Seminar", status: "Open", course_enrolment: "52/54", offering_period: "27/05/2024 - 25/08/2024", meeting_dates: "Standard dates", census_date: "23/06/2024", consent: "Consent not required", mode: "In Person", times: None, class_notes: None }, Class { class_id: "3666", section: "T14A", term: "T2 - Teaching Period Two", activity: "Seminar", status: "Full", course_enrolment: "56/56", offering_period: "27/05/2024 - 25/08/2024", meeting_dates: "Standard dates", census_date: "23/06/2024", consent: "Consent not required", mode: "In Person", times: None, class_notes: None }, Class { class_id: "3667", section: "T18A", term: "T2 - Teaching Period Two", activity: "Seminar", status: "Open", course_enrolment: "53/54", offering_period: "27/05/2024 - 25/08/2024", meeting_dates: "Standard dates", census_date: "23/06/2024", consent: "Consent not required", mode: "In Person", times: None, class_notes: None }, Class { class_id: "3668", section: "W18A", term: "T2 - Teaching Period Two", activity: "Seminar", status: "Open", course_enrolment: "53/54", offering_period: "27/05/2024 - 25/08/2024", meeting_dates: "Standard dates", census_date: "23/06/2024", consent: "Consent not required", mode: "In Person", times: None, class_notes: None }, Class { class_id: "1005", section: "CR01", term: "T3 - Teaching Period Three", activity: "Course Enrolment", status: "Full", course_enrolment: "13/13", offering_period: "09/09/2024 - 08/12/2024", meeting_dates: "Standard dates", census_date: "06/10/2024", consent: "Consent not required", mode: "In Person", times: None, class_notes: None }, Class { class_id: "3803", section: "H18A", term: "T3 - Teaching Period Three", activity: "Seminar", status: "Open", course_enrolment: "39/52", offering_period: "09/09/2024 - 08/12/2024", meeting_dates: "Standard dates", census_date: "06/10/2024", consent: "Consent not required", mode: "In Person", times: None, class_notes: None }, Class { class_id: "3804", section: "T14A", term: "T3 - Teaching Period Three", activity: "Seminar", status: "Full", course_enrolment: "52/52", offering_period: "09/09/2024 - 08/12/2024", meeting_dates: "Standard dates", census_date: "06/10/2024", consent: "Consent not required", mode: "In Person", times: None, class_notes: None }, Class { class_id: "3805", section: "T18A", term: "T3 - Teaching Period Three", activity: "Seminar", status: "Full", course_enrolment: "50/50", offering_period: "09/09/2024 - 08/12/2024", meeting_dates: "Standard dates", census_date: "06/10/2024", consent: "Consent not required", mode: "In Person", times: None, class_notes: None }, Class { class_id: "3806", section: "W14A", term: "T3 - Teaching Period Three", activity: "Seminar", status: "Full", course_enrolment: "52/52", offering_period: "09/09/2024 - 08/12/2024", meeting_dates: "Standard dates", census_date: "06/10/2024", consent: "Consent not required", mode: "In Person", times: None, class_notes: None }, Class { class_id: "3807", section: "W18A", term: "T3 - Teaching Period Three", activity: "Seminar", status: "Full", course_enrolment: "50/50", offering_period: "09/09/2024 - 08/12/2024", meeting_dates: "Standard dates", census_date: "06/10/2024", consent: "Consent not required", mode: "In Person", times: None, class_notes: None }] })
Ok(Course { subject_area_course_code: "ACCT5920", subject_area_course_name: "ACCT5920", uoc: 6, faculty: Some("UNSW Business School"), school: Some("School of Acctng, Audit & Tax"), campus: Some("Sydney"), career: Some("Postgraduate"), terms: ["T1"], classes: [Class { class_id: "1878", section: "CR01", term: "T1 - Teaching Period One", activity: "Course Enrolment", status: "Open", course_enrolment: "0/6", offering_period: "12/02/2024 - 12/05/2024", meeting_dates: "Standard dates", census_date: "10/03/2024", consent: "Consent not required", mode: "In Person", times: None, class_notes: None }, Class { class_id: "3553", section: "T09A", term: "T1 - Teaching Period One", activity: "Seminar", status: "Open", course_enrolment: "44/46", offering_period: "12/02/2024 - 12/05/2024", meeting_dates: "Standard dates", census_date: "10/03/2024", consent: "Consent not required", mode: "In Person", times: None, class_notes: None }, Class { class_id: "3554", section: "T12A", term: "T1 - Teaching Period One", activity: "Seminar", status: "Full", course_enrolment: "51/50", offering_period: "12/02/2024 - 12/05/2024", meeting_dates: "Standard dates", census_date: "10/03/2024", consent: "Consent not required", mode: "In Person", times: None, class_notes: None }, Class { class_id: "12179", section: "T16A", term: "T1 - Teaching Period One", activity: "Seminar", status: "Open", course_enrolment: "25/30", offering_period: "12/02/2024 - 12/05/2024", meeting_dates: "Standard dates", census_date: "10/03/2024", consent: "Consent not required", mode: "In Person", times: None, class_notes: None }] })
Ok(Course { subject_area_course_code: "ACCT5925", subject_area_course_name: "ACCT5925", uoc: 6, faculty: Some("UNSW Business School"), school: Some("School of Acctng, Audit & Tax"), campus: Some("Sydney"), career: Some("Postgraduate"), terms: ["T1", "T2", "T3"], classes: [Class { class_id: "3510", section: "CR01", term: "T1 - Teaching Period One", activity: "Course Enrolment", status: "Open", course_enrolment: "0/3", offering_period: "12/02/2024 - 12/05/2024", meeting_dates: "Standard dates", census_date: "10/03/2024", consent: "Consent not required", mode: "In Person", times: None, class_notes: None }, Class { class_id: "11628", section: "C", term: "T1 - Teaching Period One", activity: "Seminar", status: "Open", course_enrolment: "49/50", offering_period: "12/02/2024 - 12/05/2024", meeting_dates: "Standard dates", census_date: "10/03/2024", consent: "Consent not required", mode: "In Person", times: None, class_notes: None }, Class { class_id: "11957", section: "D", term: "T1 - Teaching Period One", activity: "Seminar", status: "Open", course_enrolment: "48/50", offering_period: "12/02/2024 - 12/05/2024", meeting_dates: "Standard dates", census_date: "10/03/2024", consent: "Consent not required", mode: "In Person", times: None, class_notes: None }, Class { class_id: "2896", section: "CR01", term: "T2 - Teaching Period Two", activity: "Course Enrolment", status: "Open", course_enrolment: "0/10", offering_period: "27/05/2024 - 25/08/2024", meeting_dates: "Standard dates", census_date: "23/06/2024", consent: "Consent not required", mode: "In Person", times: None, class_notes: None }, Class { class_id: "12176", section: "H09A", term: "T2 - Teaching Period Two", activity: "Seminar", status: "Open", course_enrolment: "45/50", offering_period: "27/05/2024 - 25/08/2024", meeting_dates: "Standard dates", census_date: "23/06/2024", consent: "Consent not required", mode: "In Person", times: None, class_notes: None }, Class { class_id: "8741", section: "H13A", term: "T2 - Teaching Period Two", activity: "Seminar", status: "Full", course_enrolment: "50/50", offering_period: "27/05/2024 - 25/08/2024", meeting_dates: "Standard dates", census_date: "23/06/2024", consent: "Consent not required", mode: "In Person", times: None, class_notes: None }, Class { class_id: "12322", section: "H13B", term: "T2 - Teaching Period Two", activity: "Seminar", status: "Open", course_enrolment: "46/50", offering_period: "27/05/2024 - 25/08/2024", meeting_dates: "Standard dates", census_date: "23/06/2024", consent: "Consent not required", mode: "In Person", times: None, class_notes: None }, Class { class_id: "8742", section: "H17A", term: "T2 - Teaching Period Two", activity: "Seminar", status: "Full", course_enrolment: "55/55", offering_period: "27/05/2024 - 25/08/2024", meeting_dates: "Standard dates", census_date: "23/06/2024", consent: "Consent not required", mode: "In Person", times: None, class_notes: None }, Class { class_id: "8743", section: "W13A", term: "T2 - Teaching Period Two", activity: "Seminar", status: "Open", course_enrolment: "49/50", offering_period: "27/05/2024 - 25/08/2024", meeting_dates: "Standard dates", census_date: "23/06/2024", consent: "Consent not required", mode: "In Person", times: None, class_notes: None }, Class { class_id: "8744", section: "W17A", term: "T2 - Teaching Period Two", activity: "Seminar", status: "Full", course_enrolment: "55/55", offering_period: "27/05/2024 - 25/08/2024", meeting_dates: "Standard dates", census_date: "23/06/2024", consent: "Consent not required", mode: "In Person", times: None, class_notes: None }, Class { class_id: "3361", section: "CR01", term: "T3 - Teaching Period Three", activity: "Course Enrolment", status: "Full", course_enrolment: "8/8", offering_period: "09/09/2024 - 08/12/2024", meeting_dates: "Standard dates", census_date: "06/10/2024", consent: "Consent not required", mode: "In Person", times: None, class_notes: None }, Class { class_id: "8759", section: "H09A", term: "T3 - Teaching Period Three", activity: "Seminar", status: "Full", course_enrolment: "50/50", offering_period: "09/09/2024 - 08/12/2024", meeting_dates: "Standard dates", census_date: "06/10/2024", consent: "Consent not required", mode: "In Person", times: None, class_notes: None }, Class { class_id: "12219", section: "H17A", term: "T3 - Teaching Period Three", activity: "Seminar", status: "Full", course_enrolment: "50/50", offering_period: "09/09/2024 - 08/12/2024", meeting_dates: "Standard dates", census_date: "06/10/2024", consent: "Consent not required", mode: "In Person", times: None, class_notes: None }, Class { class_id: "8760", section: "T09A", term: "T3 - Teaching Period Three", activity: "Seminar", status: "Open", course_enrolment: "43/50", offering_period: "09/09/2024 - 08/12/2024", meeting_dates: "Standard dates", census_date: "06/10/2024", consent: "Consent not required", mode: "In Person", times: None, class_notes: None }, Class { class_id: "8761", section: "W17A", term: "T3 - Teaching Period Three", activity: "Seminar", status: "Open", course_enrolment: "49/50", offering_period: "09/09/2024 - 08/12/2024", meeting_dates: "Standard dates", census_date: "06/10/2024", consent: "Consent not required", mode: "In Person", times: None, class_notes: None }] })
Ok(Course { subject_area_course_code: "ACCT5930", subject_area_course_name: "ACCT5930", uoc: 6, faculty: Some("UNSW Business School"), school: Some("School of Acctng, Audit & Tax"), campus: Some("Sydney"), career: Some("Postgraduate"), terms: ["T1", "T2", "T3"], classes: [Class { class_id: "1879", section: "CR01", term: "T1 - Teaching Period One", activity: "Course Enrolment", status: "Open", course_enrolment: "0/26", offering_period: "12/02/2024 - 12/05/2024", meeting_dates: "Standard dates", census_date: "10/03/2024", consent: "Consent not required", mode: "In Person", times: None, class_notes: None }, Class { class_id: "3556", section: "M12A", term: "T1 - Teaching Period One", activity: "Seminar", status: "Open", course_enrolment: "51/53", offering_period: "12/02/2024 - 12/05/2024", meeting_dates: "Standard dates", census_date: "10/03/2024", consent: "Consent not required", mode: "In Person", times: None, class_notes: None }, Class { class_id: "3557", section: "T09A", term: "T1 - Teaching Period One", activity: "Seminar", status: "Open", course_enrolment: "49/53", offering_period: "12/02/2024 - 12/05/2024", meeting_dates: "Standard dates", census_date: "10/03/2024", consent: "Consent not required", mode: "In Person", times: None, class_notes: None }, Class { class_id: "3558", section: "T12A", term: "T1 - Teaching Period One", activity: "Seminar", status: "Open", course_enrolment: "47/53", offering_period: "12/02/2024 - 12/05/2024", meeting_dates: "Standard dates", census_date: "10/03/2024", consent: "Consent not required", mode: "In Person", times: None, class_notes: None }, Class { class_id: "3560", section: "W12A", term: "T1 - Teaching Period One", activity: "Seminar", status: "Open", course_enrolment: "47/53", offering_period: "12/02/2024 - 12/05/2024", meeting_dates: "Standard dates", census_date: "10/03/2024", consent: "Consent not required", mode: "In Person", times: None, class_notes: None }, Class { class_id: "3561", section: "W18A", term: "T1 - Teaching Period One", activity: "Seminar", status: "Open", course_enrolment: "49/53", offering_period: "12/02/2024 - 12/05/2024", meeting_dates: "Standard dates", census_date: "10/03/2024", consent: "Consent not required", mode: "In Person", times: None, class_notes: None }, Class { class_id: "2895", section: "CR01", term: "T2 - Teaching Period Two", activity: "Course Enrolment", status: "Open", course_enrolment: "0/18", offering_period: "27/05/2024 - 25/08/2024", meeting_dates: "Standard dates", census_date: "23/06/2024", consent: "Consent not required", mode: "In Person", times: None, class_notes: None }, Class { class_id: "3669", section: "H09A", term: "T2 - Teaching Period Two", activity: "Seminar", status: "Open", course_enrolment: "52/53", offering_period: "27/05/2024 - 25/08/2024", meeting_dates: "Standard dates", census_date: "23/06/2024", consent: "Consent not required", mode: "In Person", times: None, class_notes: None }, Class { class_id: "3671", section: "W14A", term: "T2 - Teaching Period Two", activity: "Seminar", status: "Open", course_enrolment: "49/53", offering_period: "27/05/2024 - 25/08/2024", meeting_dates: "Standard dates", census_date: "23/06/2024", consent: "Consent not required", mode: "In Person", times: None, class_notes: None }, Class { class_id: "3672", section: "W18A", term: "T2 - Teaching Period Two", activity: "Seminar", status: "Open", course_enrolment: "43/53", offering_period: "27/05/2024 - 25/08/2024", meeting_dates: "Standard dates", census_date: "23/06/2024", consent: "Consent not required", mode: "In Person", times: None, class_notes: None }, Class { class_id: "1006", section: "CR01", term: "T3 - Teaching Period Three", activity: "Course Enrolment", status: "Full", course_enrolment: "16/16", offering_period: "09/09/2024 - 08/12/2024", meeting_dates: "Standard dates", census_date: "06/10/2024", consent: "Consent not required", mode: "In Person", times: None, class_notes: None }, Class { class_id: "3808", section: "H11A", term: "T3 - Teaching Period Three", activity: "Seminar", status: "Full", course_enrolment: "40/40", offering_period: "09/09/2024 - 08/12/2024", meeting_dates: "Standard dates", census_date: "06/10/2024", consent: "Consent not required", mode: "In Person", times: None, class_notes: None }, Class { class_id: "3809", section: "H15A", term: "T3 - Teaching Period Three", activity: "Seminar", status: "Open", course_enrolment: "39/40", offering_period: "09/09/2024 - 08/12/2024", meeting_dates: "Standard dates", census_date: "06/10/2024", consent: "Consent not required", mode: "In Person", times: None, class_notes: None }, Class { class_id: "3812", section: "T11A", term: "T3 - Teaching Period Three", activity: "Seminar", status: "Full", course_enrolment: "40/40", offering_period: "09/09/2024 - 08/12/2024", meeting_dates: "Standard dates", census_date: "06/10/2024", consent: "Consent not required", mode: "In Person", times: None, class_notes: None }, Class { class_id: "3814", section: "W15A", term: "T3 - Teaching Period Three", activity: "Seminar", status: "Full", course_enrolment: "40/40", offering_period: "09/09/2024 - 08/12/2024", meeting_dates: "Standard dates", census_date: "06/10/2024", consent: "Consent not required", mode: "In Person", times: None, class_notes: None }, Class { class_id: "3815", section: "W18A", term: "T3 - Teaching Period Three", activity: "Seminar", status: "Open", course_enrolment: "25/40", offering_period: "09/09/2024 - 08/12/2024", meeting_dates: "Standard dates", census_date: "06/10/2024", consent: "Consent not required", mode: "In Person", times: None, class_notes: None }] })
Ok(Course { subject_area_course_code: "ACCT5931", subject_area_course_name: "ACCT5931", uoc: 6, faculty: Some("UNSW Business School"), school: Some("School of Acctng, Audit & Tax"), campus: Some("Sydney"), career: Some("Postgraduate"), terms: ["T1", "T3"], classes: [Class { class_id: "1880", section: "CR01", term: "T1 - Teaching Period One", activity: "Course Enrolment", status: "Open", course_enrolment: "0/14", offering_period: "12/02/2024 - 12/05/2024", meeting_dates: "Standard dates", census_date: "10/03/2024", consent: "Consent not required", mode: "In Person", times: None, class_notes: None }, Class { class_id: "11548", section: "H17A", term: "T1 - Teaching Period One", activity: "Seminar", status: "Open", course_enrolment: "33/36", offering_period: "12/02/2024 - 12/05/2024", meeting_dates: "Standard dates", census_date: "10/03/2024", consent: "Consent not required", mode: "In Person", times: None, class_notes: None }, Class { class_id: "3562", section: "M09A", term: "T1 - Teaching Period One", activity: "Seminar", status: "Open", course_enrolment: "29/36", offering_period: "12/02/2024 - 12/05/2024", meeting_dates: "Standard dates", census_date: "10/03/2024", consent: "Consent not required", mode: "In Person", times: None, class_notes: None }, Class { class_id: "3563", section: "M15A", term: "T1 - Teaching Period One", activity: "Seminar", status: "Open", course_enrolment: "34/36", offering_period: "12/02/2024 - 12/05/2024", meeting_dates: "Standard dates", census_date: "10/03/2024", consent: "Consent not required", mode: "In Person", times: None, class_notes: None }, Class { class_id: "3564", section: "T12A", term: "T1 - Teaching Period One", activity: "Seminar", status: "Full", course_enrolment: "36/36", offering_period: "12/02/2024 - 12/05/2024", meeting_dates: "Standard dates", census_date: "10/03/2024", consent: "Consent not required", mode: "In Person", times: None, class_notes: None }, Class { class_id: "3565", section: "T18A", term: "T1 - Teaching Period One", activity: "Seminar", status: "Open", course_enrolment: "34/36", offering_period: "12/02/2024 - 12/05/2024", meeting_dates: "Standard dates", census_date: "10/03/2024", consent: "Consent not required", mode: "In Person", times: None, class_notes: None }, Class { class_id: "1007", section: "CR01", term: "T3 - Teaching Period Three", activity: "Course Enrolment", status: "Open", course_enrolment: "14/25", offering_period: "09/09/2024 - 08/12/2024", meeting_dates: "Standard dates", census_date: "06/10/2024", consent: "Consent not required", mode: "In Person", times: None, class_notes: None }, Class { class_id: "3816", section: "F09A", term: "T3 - Teaching Period Three", activity: "Seminar", status: "Open", course_enrolment: "16/36", offering_period: "09/09/2024 - 08/12/2024", meeting_dates: "Standard dates", census_date: "06/10/2024", consent: "Consent not required", mode: "In Person", times: None, class_notes: None }, Class { class_id: "3817", section: "H15A", term: "T3 - Teaching Period Three", activity: "Seminar", status: "Full", course_enrolment: "36/36", offering_period: "09/09/2024 - 08/12/2024", meeting_dates: "Standard dates", census_date: "06/10/2024", consent: "Consent not required", mode: "In Person", times: None, class_notes: None }, Class { class_id: "3820", section: "T12A", term: "T3 - Teaching Period Three", activity: "Seminar", status: "Full", course_enrolment: "36/36", offering_period: "09/09/2024 - 08/12/2024", meeting_dates: "Standard dates", census_date: "06/10/2024", consent: "Consent not required", mode: "In Person", times: None, class_notes: None }, Class { class_id: "3821", section: "T18A", term: "T3 - Teaching Period Three", activity: "Seminar", status: "Open", course_enrolment: "32/36", offering_period: "09/09/2024 - 08/12/2024", meeting_dates: "Standard dates", census_date: "06/10/2024", consent: "Consent not required", mode: "In Person", times: None, class_notes: None }, Class { class_id: "3822", section: "W15A", term: "T3 - Teaching Period Three", activity: "Seminar", status: "Open", course_enrolment: "35/36", offering_period: "09/09/2024 - 08/12/2024", meeting_dates: "Standard dates", census_date: "06/10/2024", consent: "Consent not required", mode: "In Person", times: None, class_notes: None }] })
Ok(Course { subject_area_course_code: "ACCT5935", subject_area_course_name: "ACCT5935", uoc: 6, faculty: Some("UNSW Business School"), school: Some("School of Acctng, Audit & Tax"), campus: Some("Sydney"), career: Some("Postgraduate"), terms: ["T1", "T2"], classes: [Class { class_id: "1003", section: "CR01", term: "T1 - Teaching Period One", activity: "Course Enrolment", status: "Open", course_enrolment: "0/34", offering_period: "12/02/2024 - 12/05/2024", meeting_dates: "Standard dates", census_date: "10/03/2024", consent: "Consent not required", mode: "In Person", times: None, class_notes: None }, Class { class_id: "10738", section: "F09A", term: "T1 - Teaching Period One", activity: "Seminar", status: "Open", course_enrolment: "4/38", offering_period: "12/02/2024 - 12/05/2024", meeting_dates: "Standard dates", census_date: "10/03/2024", consent: "Consent not required", mode: "In Person", times: None, class_notes: None }, Class { class_id: "2894", section: "CR01", term: "T2 - Teaching Period Two", activity: "Course Enrolment", status: "Open", course_enrolment: "0/5", offering_period: "27/05/2024 - 25/08/2024", meeting_dates: "Standard dates", census_date: "23/06/2024", consent: "Consent not required", mode: "In Person", times: None, class_notes: None }, Class { class_id: "11976", section: "T17A", term: "T2 - Teaching Period Two", activity: "Seminar", status: "Open", course_enrolment: "15/20", offering_period: "27/05/2024 - 25/08/2024", meeting_dates: "Standard dates", census_date: "23/06/2024", consent: "Consent not required", mode: "In Person", times: Some([Time { day: "Tue", time: "17:00 - 20:00", location: "", weeks: "", instructor: None }]), class_notes: None }] })
Ok(Course { subject_area_course_code: "ACCT5936", subject_area_course_name: "ACCT5936", uoc: 6, faculty: Some("UNSW Business School"), school: Some("School of Acctng, Audit & Tax"), campus: Some("Sydney"), career: Some("Postgraduate"), terms: ["T1", "T2"], classes: [Class { class_id: "1004", section: "CR01", term: "T1 - Teaching Period One", activity: "Course Enrolment", status: "Open", course_enrolment: "0/34", offering_period: "12/02/2024 - 12/05/2024", meeting_dates: "Standard dates", census_date: "10/03/2024", consent: "Consent not required", mode: "In Person", times: None, class_notes: None }, Class { class_id: "10902", section: "T09A", term: "T1 - Teaching Period One", activity: "Seminar", status: "Open", course_enrolment: "4/38", offering_period: "12/02/2024 - 12/05/2024", meeting_dates: "Standard dates", census_date: "10/03/2024", consent: "Consent not required", mode: "In Person", times: None, class_notes: None }, Class { class_id: "2893", section: "CR01", term: "T2 - Teaching Period Two", activity: "Course Enrolment", status: "Open", course_enrolment: "0/25", offering_period: "27/05/2024 - 25/08/2024", meeting_dates: "Standard dates", census_date: "23/06/2024", consent: "Consent not required", mode: "In Person", times: None, class_notes: None }, Class { class_id: "12009", section: "F09A", term: "T2 - Teaching Period Two", activity: "Seminar", status: "Open", course_enrolment: "1/26", offering_period: "27/05/2024 - 25/08/2024", meeting_dates: "Standard dates", census_date: "23/06/2024", consent: "Consent not required", mode: "In Person", times: Some([Time { day: "Fri", time: "09:00 - 12:00", location: "", weeks: "", instructor: None }]), class_notes: None }] })
